index,B1_stim,B1_condition,B1_correct,B2_stim,B2_condition,B2_correct,sig_volume,b1_instuctions.thisRepN,b1_instuctions.thisTrialN,b1_instuctions.thisN,b1_instuctions.thisIndex,B1_trials.thisRepN,B1_trials.thisTrialN,B1_trials.thisN,B1_trials.thisIndex,B2_instr.thisRepN,B2_instr.thisTrialN,B2_instr.thisN,B2_instr.thisIndex,B2_trials.thisRepN,B2_trials.thisTrialN,B2_trials.thisN,B2_trials.thisIndex,B1_resp.keys,B1_resp.corr,RT_list,B2_resp.keys,B2_resp.corr,signal.started,signal.stopped,B2_resp.rt,participant,session,date,expName,psychopyVersion,frameRate,
4,Moose,Animals,f,,,,,,,,,0,0,0,4,,,,,,,,,None,0,[[]],,,,,,,001,2020_Jan_02_0839,SST 1-2-20,3.1.5,60.19505605966146,
6,Parrot,Animals,f,,,,,,,,,0,1,1,6,,,,,,,,,None,0,"[[], []]",,,,,,,001,2020_Jan_02_0839,SST 1-2-20,3.1.5,60.19505605966146,
7,Rat,Animals,f,,,,,,,,,0,2,2,7,,,,,,,,,None,0,"[[], [], []]",,,,,,,001,2020_Jan_02_0839,SST 1-2-20,3.1.5,60.19505605966146,
19,Truck,Nonanimals,j,,,,,,,,,0,3,3,19,,,,,,,,,None,0,"[[], [], [], []]",,,,,,,001,2020_Jan_02_0839,SST 1-2-20,3.1.5,60.19505605966146,
1,Catepillar,Animals,f,,,,,,,,,0,4,4,1,,,,,,,,,None,0,"[[], [], [], [], []]",,,,,,,001,2020_Jan_02_0839,SST 1-2-20,3.1.5,60.19505605966146,
18,Desk,Nonanimals,j,,,,,,,,,0,5,5,18,,,,,,,,,None,0,"[[], [], [], [], [], []]",,,,,,,001,2020_Jan_02_0839,SST 1-2-20,3.1.5,60.19505605966146,
20,Tomato,Nonanimals,j,,,,,,,,,0,6,6,20,,,,,,,,,None,0,"[[], [], [], [], [], [], []]",,,,,,,001,2020_Jan_02_0839,SST 1-2-20,3.1.5,60.19505605966146,
8,Sea Lion,Animals,f,,,,,,,,,0,7,7,8,,,,,,,,,None,0,"[[], [], [], [], [], [], [], []]",,,,,,,001,2020_Jan_02_0839,SST 1-2-20,3.1.5,60.19505605966146,
23,Saw,Nonanimals,j,,,,,,,,,0,8,8,23,,,,,,,,,None,0,"[[], [], [], [], [], [], [], [], []]",,,,,,,001,2020_Jan_02_0839,SST 1-2-20,3.1.5,60.19505605966146,
21,Garlic,Nonanimals,j,,,,,,,,,0,9,9,21,,,,,,,,,None,0,"[[], [], [], [], [], [], [], [], [], []]",,,,,,,001,2020_Jan_02_0839,SST 1-2-20,3.1.5,60.19505605966146,
5,Penguin,Animals,f,,,,,,,,,0,10,10,5,,,,,,,,,None,0,"[[], [], [], [], [], [], [], [], [], [], []]",,,,,,,001,2020_Jan_02_0839,SST 1-2-20,3.1.5,60.19505605966146,
2,Frog,Animals,f,,,,,,,,,0,11,11,2,,,,,,,,,None,0,"[[], [], [], [], [], [], [], [], [], [], [], []]",,,,,,,001,2020_Jan_02_0839,SST 1-2-20,3.1.5,60.19505605966146,
0,Armadillo,Animals,f,,,,,,,,,0,12,12,0,,,,,,,,,None,0,"[[], [], [], [], [], [], [], [], [], [], [], [], []]",,,,,,,001,2020_Jan_02_0839,SST 1-2-20,3.1.5,60.19505605966146,
22,Drill,Nonanimals,j,,,,,,,,,0,13,13,22,,,,,,,,,None,0,"[[], [], [], [], [], [], [], [], [], [], [], [], [], []]",,,,,,,001,2020_Jan_02_0839,SST 1-2-20,3.1.5,60.19505605966146,
14,Blueberry,Nonanimals,j,,,,,,,,,0,14,14,14,,,,,,,,,None,0,"[[], [], [], [], [], [], [], [], [], [], [], [], [], [], []]",,,,,,,001,2020_Jan_02_0839,SST 1-2-20,3.1.5,60.19505605966146,
17,Shorts,Nonanimals,j,,,,,,,,,0,15,15,17,,,,,,,,,None,0,"[[], [], [], [], [], [], [], [], [], [], [], [], [], [], [], []]",,,,,,,001,2020_Jan_02_0839,SST 1-2-20,3.1.5,60.19505605966146,
16,Screwdriver,Nonanimals,j,,,,,,,,,0,16,16,16,,,,,,,,,None,0,"[[], [], [], [], [], [], [], [], [], [], [], [], [], [], [], [], []]",,,,,,,001,2020_Jan_02_0839,SST 1-2-20,3.1.5,60.19505605966146,
10,Toad,Animals,f,,,,,,,,,0,17,17,10,,,,,,,,,None,0,"[[], [], [], [], [], [], [], [], [], [], [], [], [], [], [], [], [], []]",,,,,,,001,2020_Jan_02_0839,SST 1-2-20,3.1.5,60.19505605966146,
11,Zebra,Animals,f,,,,,,,,,0,18,18,11,,,,,,,,,None,0,"[[], [], [], [], [], [], [], [], [], [], [], [], [], [], [], [], [], [], []]",,,,,,,001,2020_Jan_02_0839,SST 1-2-20,3.1.5,60.19505605966146,
3,Leopard,Animals,f,,,,,,,,,0,19,19,3,,,,,,,,,None,0,"[[], [], [], [], [], [], [], [], [], [], [], [], [], [], [], [], [], [], [], []]",,,,,,,001,2020_Jan_02_0839,SST 1-2-20,3.1.5,60.19505605966146,
13,Subway,Nonanimals,j,,,,,,,,,0,20,20,13,,,,,,,,,None,0,"[[], [], [], [], [], [], [], [], [], [], [], [], [], [], [], [], [], [], [], [], []]",,,,,,,001,2020_Jan_02_0839,SST 1-2-20,3.1.5,60.19505605966146,
9,Squirrel,Animals,f,,,,,,,,,0,21,21,9,,,,,,,,,None,0,"[[], [], [], [], [], [], [], [], [], [], [], [], [], [], [], [], [], [], [], [], [], []]",,,,,,,001,2020_Jan_02_0839,SST 1-2-20,3.1.5,60.19505605966146,
12,Table,Nonanimals,j,,,,,,,,,0,22,22,12,,,,,,,,,None,0,"[[], [], [], [], [], [], [], [], [], [], [], [], [], [], [], [], [], [], [], [], [], [], []]",,,,,,,001,2020_Jan_02_0839,SST 1-2-20,3.1.5,60.19505605966146,
15,Lettuce,Nonanimals,j,,,,,,,,,0,23,23,15,,,,,,,,,None,0,"[[], [], [], [], [], [], [], [], [], [], [], [], [], [], [], [], [], [], [], [], [], [], [], []]",,,,,,,001,2020_Jan_02_0839,SST 1-2-20,3.1.5,60.19505605966146,
0,,,,Antelope,Animals,f,1,,,,,,,,,,,,,0,0,0,0,,,,None,0,0.02293880000001991,0.11861770000018623,,,001,2020_Jan_02_0839,SST 1-2-20,3.1.5,60.19505605966146,
1,,,,Anteater,Animals,f,0,,,,,,,,,,,,,0,1,1,1,,,,None,0,0.017868000000134998,0.11435640000013336,,,001,2020_Jan_02_0839,SST 1-2-20,3.1.5,60.19505605966146,
2,,,,Aardvark,Animals,f,0,,,,,,,,,,,,,0,2,2,2,,,,f,1,0.018596899999920424,0.11664009999981317,0.7490210000000843,,001,2020_Jan_02_0839,SST 1-2-20,3.1.5,60.19505605966146,
3,,,,Alligator,Animals,f,1,,,,,,,,,,,,,0,3,3,3,,,,None,0,0.019169099999999162,0.11658590000001823,,,001,2020_Jan_02_0839,SST 1-2-20,3.1.5,60.19505605966146,
