index,B1_stim,B1_condition,B1_correct,B2_stim,B2_condition,B2_correct,sig_volume,b1_instuctions.thisRepN,b1_instuctions.thisTrialN,b1_instuctions.thisN,b1_instuctions.thisIndex,B1_trials.thisRepN,B1_trials.thisTrialN,B1_trials.thisN,B1_trials.thisIndex,B2_instr.thisRepN,B2_instr.thisTrialN,B2_instr.thisN,B2_instr.thisIndex,B2_trials.thisRepN,B2_trials.thisTrialN,B2_trials.thisN,B2_trials.thisIndex,B1_resp.keys,B1_resp.corr,RT_list,B2_resp.keys,B2_resp.corr,signal.started,signal.stopped,participant,session,date,expName,psychopyVersion,frameRate,
0,Armadillo,Animals,f,,,,,,,,,0,0,0,0,,,,,,,,,None,0,[[]],,,,,,001,2020_Jan_02_1012,SST 1-2-20,3.1.5,59.98649104224866,
12,Table,Nonanimals,j,,,,,,,,,0,1,1,12,,,,,,,,,None,0,"[[], []]",,,,,,001,2020_Jan_02_1012,SST 1-2-20,3.1.5,59.98649104224866,
3,Leopard,Animals,f,,,,,,,,,0,2,2,3,,,,,,,,,None,0,"[[], [], []]",,,,,,001,2020_Jan_02_1012,SST 1-2-20,3.1.5,59.98649104224866,
6,Parrot,Animals,f,,,,,,,,,0,3,3,6,,,,,,,,,None,0,"[[], [], [], []]",,,,,,001,2020_Jan_02_1012,SST 1-2-20,3.1.5,59.98649104224866,
2,Frog,Animals,f,,,,,,,,,0,4,4,2,,,,,,,,,None,0,"[[], [], [], [], []]",,,,,,001,2020_Jan_02_1012,SST 1-2-20,3.1.5,59.98649104224866,
15,Lettuce,Nonanimals,j,,,,,,,,,0,5,5,15,,,,,,,,,None,0,"[[], [], [], [], [], []]",,,,,,001,2020_Jan_02_1012,SST 1-2-20,3.1.5,59.98649104224866,
9,Squirrel,Animals,f,,,,,,,,,0,6,6,9,,,,,,,,,None,0,"[[], [], [], [], [], [], []]",,,,,,001,2020_Jan_02_1012,SST 1-2-20,3.1.5,59.98649104224866,
23,Saw,Nonanimals,j,,,,,,,,,0,7,7,23,,,,,,,,,None,0,"[[], [], [], [], [], [], [], []]",,,,,,001,2020_Jan_02_1012,SST 1-2-20,3.1.5,59.98649104224866,
7,Rat,Animals,f,,,,,,,,,0,8,8,7,,,,,,,,,None,0,"[[], [], [], [], [], [], [], [], []]",,,,,,001,2020_Jan_02_1012,SST 1-2-20,3.1.5,59.98649104224866,
11,Zebra,Animals,f,,,,,,,,,0,9,9,11,,,,,,,,,None,0,"[[], [], [], [], [], [], [], [], [], []]",,,,,,001,2020_Jan_02_1012,SST 1-2-20,3.1.5,59.98649104224866,
21,Garlic,Nonanimals,j,,,,,,,,,0,10,10,21,,,,,,,,,None,0,"[[], [], [], [], [], [], [], [], [], [], []]",,,,,,001,2020_Jan_02_1012,SST 1-2-20,3.1.5,59.98649104224866,
8,Sea Lion,Animals,f,,,,,,,,,0,11,11,8,,,,,,,,,None,0,"[[], [], [], [], [], [], [], [], [], [], [], []]",,,,,,001,2020_Jan_02_1012,SST 1-2-20,3.1.5,59.98649104224866,
14,Blueberry,Nonanimals,j,,,,,,,,,0,12,12,14,,,,,,,,,None,0,"[[], [], [], [], [], [], [], [], [], [], [], [], []]",,,,,,001,2020_Jan_02_1012,SST 1-2-20,3.1.5,59.98649104224866,
10,Toad,Animals,f,,,,,,,,,0,13,13,10,,,,,,,,,None,0,"[[], [], [], [], [], [], [], [], [], [], [], [], [], []]",,,,,,001,2020_Jan_02_1012,SST 1-2-20,3.1.5,59.98649104224866,
17,Shorts,Nonanimals,j,,,,,,,,,0,14,14,17,,,,,,,,,None,0,"[[], [], [], [], [], [], [], [], [], [], [], [], [], [], []]",,,,,,001,2020_Jan_02_1012,SST 1-2-20,3.1.5,59.98649104224866,
20,Tomato,Nonanimals,j,,,,,,,,,0,15,15,20,,,,,,,,,None,0,"[[], [], [], [], [], [], [], [], [], [], [], [], [], [], [], []]",,,,,,001,2020_Jan_02_1012,SST 1-2-20,3.1.5,59.98649104224866,
22,Drill,Nonanimals,j,,,,,,,,,0,16,16,22,,,,,,,,,None,0,"[[], [], [], [], [], [], [], [], [], [], [], [], [], [], [], [], []]",,,,,,001,2020_Jan_02_1012,SST 1-2-20,3.1.5,59.98649104224866,
5,Penguin,Animals,f,,,,,,,,,0,17,17,5,,,,,,,,,None,0,"[[], [], [], [], [], [], [], [], [], [], [], [], [], [], [], [], [], []]",,,,,,001,2020_Jan_02_1012,SST 1-2-20,3.1.5,59.98649104224866,
1,Catepillar,Animals,f,,,,,,,,,0,18,18,1,,,,,,,,,None,0,"[[], [], [], [], [], [], [], [], [], [], [], [], [], [], [], [], [], [], []]",,,,,,001,2020_Jan_02_1012,SST 1-2-20,3.1.5,59.98649104224866,
13,Subway,Nonanimals,j,,,,,,,,,0,19,19,13,,,,,,,,,None,0,"[[], [], [], [], [], [], [], [], [], [], [], [], [], [], [], [], [], [], [], []]",,,,,,001,2020_Jan_02_1012,SST 1-2-20,3.1.5,59.98649104224866,
4,Moose,Animals,f,,,,,,,,,0,20,20,4,,,,,,,,,None,0,"[[], [], [], [], [], [], [], [], [], [], [], [], [], [], [], [], [], [], [], [], []]",,,,,,001,2020_Jan_02_1012,SST 1-2-20,3.1.5,59.98649104224866,
16,Screwdriver,Nonanimals,j,,,,,,,,,0,21,21,16,,,,,,,,,None,0,"[[], [], [], [], [], [], [], [], [], [], [], [], [], [], [], [], [], [], [], [], [], []]",,,,,,001,2020_Jan_02_1012,SST 1-2-20,3.1.5,59.98649104224866,
19,Truck,Nonanimals,j,,,,,,,,,0,22,22,19,,,,,,,,,None,0,"[[], [], [], [], [], [], [], [], [], [], [], [], [], [], [], [], [], [], [], [], [], [], []]",,,,,,001,2020_Jan_02_1012,SST 1-2-20,3.1.5,59.98649104224866,
18,Desk,Nonanimals,j,,,,,,,,,0,23,23,18,,,,,,,,,None,0,"[[], [], [], [], [], [], [], [], [], [], [], [], [], [], [], [], [], [], [], [], [], [], [], []]",,,,,,001,2020_Jan_02_1012,SST 1-2-20,3.1.5,59.98649104224866,
0,,,,Antelope,Animals,f,1,,,,,,,,,,,,,0,0,0,0,,,,None,0,0.019984400000794267,0.11874970000008034,,001,2020_Jan_02_1012,SST 1-2-20,3.1.5,59.98649104224866,
1,,,,Anteater,Animals,f,0,,,,,,,,,,,,,0,1,1,1,,,,None,0,0.019208800000342308,0.11425820000022213,,001,2020_Jan_02_1012,SST 1-2-20,3.1.5,59.98649104224866,
2,,,,Aardvark,Animals,f,0,,,,,,,,,,,,,0,2,2,2,,,,None,0,0.01947539999946457,0.11676519999946322,,001,2020_Jan_02_1012,SST 1-2-20,3.1.5,59.98649104224866,
3,,,,Alligator,Animals,f,1,,,,,,,,,,,,,0,3,3,3,,,,None,0,0.0203070999996271,0.11886979999962932,,001,2020_Jan_02_1012,SST 1-2-20,3.1.5,59.98649104224866,
4,,,,Ant,Animals,f,0,,,,,,,,,,,,,0,4,4,4,,,,None,0,0.010893300000134332,0.11420540000017354,,001,2020_Jan_02_1012,SST 1-2-20,3.1.5,59.98649104224866,
5,,,,Baboon,Animals,f,0,,,,,,,,,,,,,0,5,5,5,,,,None,0,0.013990999999805354,0.11625769999955082,,001,2020_Jan_02_1012,SST 1-2-20,3.1.5,59.98649104224866,
6,,,,Badger,Animals,f,0,,,,,,,,,,,,,0,6,6,6,,,,None,0,0.016647399999783374,0.11643850000018574,,001,2020_Jan_02_1012,SST 1-2-20,3.1.5,59.98649104224866,
7,,,,Bear,Animals,f,1,,,,,,,,,,,,,0,7,7,7,,,,None,0,0.013189599999350321,0.11637739999969199,,001,2020_Jan_02_1012,SST 1-2-20,3.1.5,59.98649104224866,
8,,,,Beetle,Animals,f,0,,,,,,,,,,,,,0,8,8,8,,,,None,0,0.014641800000390504,0.11657780000041384,,001,2020_Jan_02_1012,SST 1-2-20,3.1.5,59.98649104224866,
9,,,,Bird,Animals,f,0,,,,,,,,,,,,,0,9,9,9,,,,None,0,0.013607800000499992,0.11631910000050993,,001,2020_Jan_02_1012,SST 1-2-20,3.1.5,59.98649104224866,
10,,,,Bison,Animals,f,0,,,,,,,,,,,,,0,10,10,10,,,,None,0,0.016439699999864388,0.11660889999984647,,001,2020_Jan_02_1012,SST 1-2-20,3.1.5,59.98649104224866,
11,,,,Bobcat,Animals,f,0,,,,,,,,,,,,,0,11,11,11,,,,None,0,0.01656419999926584,0.1165461000000505,,001,2020_Jan_02_1012,SST 1-2-20,3.1.5,59.98649104224866,
12,,,,Buffalo,Animals,f,0,,,,,,,,,,,,,0,12,12,12,,,,None,0,0.01613679999991291,0.11649959999977,,001,2020_Jan_02_1012,SST 1-2-20,3.1.5,59.98649104224866,
13,,,,Bullfrog,Animals,f,0,,,,,,,,,,,,,0,13,13,13,,,,None,0,0.017843200000243087,0.1163563999998587,,001,2020_Jan_02_1012,SST 1-2-20,3.1.5,59.98649104224866,
14,,,,Bumble Bee,Animals,f,0,,,,,,,,,,,,,0,14,14,14,,,,None,0,0.022156600000016624,0.11873839999952907,,001,2020_Jan_02_1012,SST 1-2-20,3.1.5,59.98649104224866,
15,,,,Butterfly,Animals,f,0,,,,,,,,,,,,,0,15,15,15,,,,None,0,0.020033199999488716,0.11666989999957877,,001,2020_Jan_02_1012,SST 1-2-20,3.1.5,59.98649104224866,
16,,,,Buzzard,Animals,f,1,,,,,,,,,,,,,0,16,16,16,,,,None,0,0.031200699999317294,0.1309808999994857,,001,2020_Jan_02_1012,SST 1-2-20,3.1.5,59.98649104224866,
17,,,,Camel,Animals,f,0,,,,,,,,,,,,,0,17,17,17,,,,None,0,0.014736099999936414,0.11631750000015018,,001,2020_Jan_02_1012,SST 1-2-20,3.1.5,59.98649104224866,
18,,,,Cat,Animals,f,0,,,,,,,,,,,,,0,18,18,18,,,,None,0,0.011620100000072853,0.0999617000006765,,001,2020_Jan_02_1012,SST 1-2-20,3.1.5,59.98649104224866,
19,,,,Chameleon,Animals,f,0,,,,,,,,,,,,,0,19,19,19,,,,None,0,0.020206499999403604,0.11877329999970243,,001,2020_Jan_02_1012,SST 1-2-20,3.1.5,59.98649104224866,
20,,,,Cheetah,Animals,f,0,,,,,,,,,,,,,0,20,20,20,,,,None,0,0.015868599999521393,0.11406720000013593,,001,2020_Jan_02_1012,SST 1-2-20,3.1.5,59.98649104224866,
21,,,,Chimpanzee,Animals,f,0,,,,,,,,,,,,,0,21,21,21,,,,None,0,0.02139660000011645,0.11886640000011539,,001,2020_Jan_02_1012,SST 1-2-20,3.1.5,59.98649104224866,
22,,,,Chipmunk,Animals,f,0,,,,,,,,,,,,,0,22,22,22,,,,None,0,0.01877489999969839,0.11416120000012597,,001,2020_Jan_02_1012,SST 1-2-20,3.1.5,59.98649104224866,
23,,,,Cougar,Animals,f,0,,,,,,,,,,,,,0,23,23,23,,,,None,0,0.014790300000640855,0.11649860000034096,,001,2020_Jan_02_1012,SST 1-2-20,3.1.5,59.98649104224866,
24,,,,Cow,Animals,f,0,,,,,,,,,,,,,0,24,24,24,,,,None,0,0.011084800000389805,0.09985280000000785,,001,2020_Jan_02_1012,SST 1-2-20,3.1.5,59.98649104224866,
25,,,,Coyote,Animals,f,1,,,,,,,,,,,,,0,25,25,25,,,,None,0,0.015416499999446387,0.11646199999995588,,001,2020_Jan_02_1012,SST 1-2-20,3.1.5,59.98649104224866,
26,,,,Crab,Animals,f,0,,,,,,,,,,,,,0,26,26,26,,,,None,0,0.01193650000004709,0.1000358999999662,,001,2020_Jan_02_1012,SST 1-2-20,3.1.5,59.98649104224866,
27,,,,Crocodile,Animals,f,0,,,,,,,,,,,,,0,27,27,27,,,,None,0,0.024425999999948544,0.11648530000002211,,001,2020_Jan_02_1012,SST 1-2-20,3.1.5,59.98649104224866,
28,,,,Deer,Animals,f,0,,,,,,,,,,,,,0,28,28,28,,,,None,0,0.011577700000088953,0.09998689999974886,,001,2020_Jan_02_1012,SST 1-2-20,3.1.5,59.98649104224866,
29,,,,Dog,Animals,f,0,,,,,,,,,,,,,0,29,29,29,,,,None,0,0.010652200000549783,0.09990800000014133,,001,2020_Jan_02_1012,SST 1-2-20,3.1.5,59.98649104224866,
30,,,,Dolphin,Animals,f,0,,,,,,,,,,,,,0,30,30,30,,,,None,0,0.07106079999994108,0.1665141000003132,,001,2020_Jan_02_1012,SST 1-2-20,3.1.5,59.98649104224866,
31,,,,Donkey,Animals,f,0,,,,,,,,,,,,,0,31,31,31,,,,None,0,0.016053399999691464,0.11648609999974724,,001,2020_Jan_02_1012,SST 1-2-20,3.1.5,59.98649104224866,
32,,,,Duck,Animals,f,0,,,,,,,,,,,,,0,32,32,32,,,,None,0,0.013374099999964528,0.11620380000022124,,001,2020_Jan_02_1012,SST 1-2-20,3.1.5,59.98649104224866,
33,,,,Eagle,Animals,f,0,,,,,,,,,,,,,0,33,33,33,,,,None,0,0.024640800000270247,0.11671070000011241,,001,2020_Jan_02_1012,SST 1-2-20,3.1.5,59.98649104224866,
34,,,,Eel,Animals,f,1,,,,,,,,,,,,,0,34,34,34,,,,None,0,0.010983999999552907,0.09993039999972098,,001,2020_Jan_02_1012,SST 1-2-20,3.1.5,59.98649104224866,
35,,,,Elephant,Animals,f,0,,,,,,,,,,,,,0,35,35,35,,,,None,0,0.020496600000114995,0.11900729999979376,,001,2020_Jan_02_1012,SST 1-2-20,3.1.5,59.98649104224866,
